#%Name: HFO (Fe4-P4)
#%Empirical formula:
#%Mineral group: oxides
#%Xtal system: 
#%Edge: K
#%Sample prep: Sample is HFO made by adding a solution of Fe(NO3)3.9H2O to a solution of (NH4)2HPO4, yielding a P/Fe molar ratio of 1.09.  
#The sample is that called out as Fe4-P4.
#%Beamline: 
#%Detector: 3rd ion chamber, transmission mode
#%Ref/notes:  Two scans were taken and added together.  The data were shifted to put the inflection point for Fe foil at 7110.75eV.  
#%Ref/notes: The .t file was made from the raw (.r) transmission data using the 10.3.2 k-space&background removal tool, in Edge&Trans mode for the pre-edge subtraction. 
#%Ref/notes: Glitches were smoothed over using the 10.3.2 2-column Editor program. For post-edge normalization of the XANES file, the gross curvature due to it being 
#%Ref/notes: transmission data was removed by fitting to a power law in the approximate range 7200-7600eV and dividing by that fit.  
#%Ref/notes: Next, the file was pruned back to 7500eV and a linear fit between ~7200eV and 7500eV divided out.  
#%Ref/notes: This choice was made in order to have a better match to the usual sort of XANES data which is taken in fluorescence and over a shorter range 
#%Ref/notes: than this dataset.
#%Temp: 
#%Time&date: 2010
#%Provider: Andreas Voegelin see: A. Voegelin, R. Kaegi, J. Frommer, D. Vantelon, S. J. Hug "Effect of phosphate, silicate, and Ca on Fe(III)-precipitates formed in aerated Fe(II)- and As(III)-containing water studied by X-ray absorption spectroscopy" GCA 74,164-186 (2010)
#%============================================================
6.9661610E+3 5.7093070E-4
6.9711710E+3 6.1578188E-4
6.9761610E+3 5.1525353E-4
6.9811710E+3 5.6966574E-4
6.9861410E+3 5.5449772E-4
6.9911510E+3 7.9107473E-4
6.9961410E+3 5.7096595E-4
7.0011410E+3 7.7226689E-4
7.0061710E+3 8.1047089E-4
7.0111610E+3 3.2778119E-4
7.0161610E+3 5.6035356E-4
7.0211710E+3 7.7707732E-4
7.0261710E+3 8.0237139E-4
7.0311910E+3 8.6728385E-4
7.0361810E+3 9.0829203E-4
7.0411510E+3 9.5166175E-4
7.0461610E+3 1.0185979E-3
7.0511710E+3 1.0657404E-3
7.0561610E+3 1.2524777E-3
7.0611710E+3 1.3376614E-3
7.0632210E+3 1.2161050E-3
7.0651610E+3 1.2273643E-3
7.0671510E+3 1.4481650E-3
7.0691710E+3 1.4543776E-3
7.0711610E+3 1.9531931E-3
7.0731510E+3 1.7849044E-3
7.0751710E+3 1.9010658E-3
7.0771610E+3 1.9730536E-3
7.0791810E+3 1.9491220E-3
7.0811510E+3 2.2725746E-3
7.0831510E+3 2.5208471E-3
7.0852210E+3 2.5312936E-3
7.0872010E+3 2.7325531E-3
7.0892010E+3 3.0204664E-3
7.0912010E+3 3.4505179E-3
7.0916110E+3 3.4410473E-3
7.0921410E+3 3.5968564E-3
7.0926310E+3 3.6697429E-3
7.0931210E+3 3.8104442E-3
7.0936110E+3 4.1088269E-3
7.0941510E+3 4.1953595E-3
7.0946410E+3 4.6768528E-3
7.0951310E+3 4.8240246E-3
7.0956210E+3 4.5972888E-3
7.0961110E+3 4.3899355E-3
7.0966210E+3 4.8326094E-3
7.0971110E+3 4.8064200E-3
7.0976310E+3 5.2812669E-3
7.0981210E+3 5.3090101E-3
7.0986110E+3 5.3567885E-3
7.0991210E+3 5.6207879E-3
7.0996110E+3 5.6535685E-3
7.1001310E+3 5.5953617E-3
7.1006210E+3 5.5849449E-3
7.1011110E+3 5.3264374E-3
7.1016210E+3 5.1972199E-3
7.1021210E+3 5.4047115E-3
7.1026310E+3 5.9744035E-3
7.1031410E+3 7.1200272E-3
7.1036110E+3 8.3030416E-3
7.1041310E+3 8.7539645E-3
7.1046410E+3 8.9706037E-3
7.1051110E+3 9.2630298E-3
7.1056210E+3 9.1969205E-3
7.1061210E+3 9.5293437E-3
7.1066110E+3 9.6988122E-3
7.1071410E+3 1.0193400E-2
7.1076210E+3 1.0670345E-2
7.1081110E+3 1.1197643E-2
7.1086410E+3 1.2022096E-2
7.1091410E+3 1.3225512E-2
7.1096110E+3 1.4577402E-2
7.1101210E+3 1.6552169E-2
7.1106210E+3 1.9848833E-2
7.1111310E+3 2.5380089E-2
7.1116210E+3 3.3225980E-2
7.1121210E+3 4.2212028E-2
7.1126110E+3 5.0770924E-2
7.1131510E+3 5.6518597E-2
7.1136410E+3 5.6490752E-2
7.1141110E+3 5.3477995E-2
7.1146510E+3 4.8253279E-2
7.1151410E+3 4.4410081E-2
7.1156410E+3 4.3491523E-2
7.1161310E+3 4.4880313E-2
7.1166310E+3 4.7520441E-2
7.1171210E+3 5.1528487E-2
7.1176410E+3 5.5873951E-2
7.1181310E+3 6.1222677E-2
7.1186210E+3 6.8779752E-2
7.1191210E+3 7.9524474E-2
7.1196110E+3 9.4281326E-2
7.1201310E+3 1.1426453E-1
7.1206210E+3 1.4018326E-1
7.1211210E+3 1.7668760E-1
7.1216310E+3 2.2455931E-1
7.1221310E+3 2.7754242E-1
7.1226210E+3 3.3644568E-1
7.1231210E+3 4.0212906E-1
7.1236110E+3 4.7345238E-1
7.1241310E+3 5.3924076E-1
7.1246510E+3 6.1092965E-1
7.1251210E+3 6.8115926E-1
7.1256210E+3 7.6498224E-1
7.1261310E+3 8.5341470E-1
7.1266510E+3 9.4939973E-1
7.1271210E+3 1.0390138E+0
7.1276210E+3 1.1385875E+0
7.1281210E+3 1.2277640E+0
7.1286110E+3 1.2983113E+0
7.1291310E+3 1.3574054E+0
7.1296210E+3 1.3964525E+0
7.1301210E+3 1.4208593E+0
7.1306410E+3 1.4292405E+0
7.1311110E+3 1.4289414E+0
7.1320210E+3 1.4144218E+0
7.1329510E+3 1.3970328E+0
7.1338510E+3 1.3822246E+0
7.1348010E+3 1.3738076E+0
7.1357310E+3 1.3670560E+0
7.1367510E+3 1.3526446E+0
7.1377210E+3 1.3271851E+0
7.1387610E+3 1.2877419E+0
7.1397910E+3 1.2475197E+0
7.1408310E+3 1.2039998E+0
7.1419110E+3 1.1676476E+0
7.1430210E+3 1.1331340E+0
7.1441210E+3 1.1049475E+0
7.1452510E+3 1.0783847E+0
7.1464010E+3 1.0560424E+0
7.1475910E+3 1.0335014E+0
7.1487610E+3 1.0111088E+0
7.1499710E+3 9.8573558E-1
7.1511910E+3 9.5697159E-1
7.1524310E+3 9.2832269E-1
7.1537110E+3 8.9728090E-1
7.1549710E+3 8.6999401E-1
7.1562710E+3 8.4511891E-1
7.1576010E+3 8.2581011E-1
7.1589210E+3 8.1337454E-1
7.1603110E+3 8.0848584E-1
7.1616610E+3 8.1113272E-1
7.1630610E+3 8.2126401E-1
7.1644710E+3 8.3774474E-1
7.1659110E+3 8.5873445E-1
7.1673910E+3 8.8420085E-1
7.1688510E+3 9.1116242E-1
7.1703410E+3 9.3794282E-1
7.1718610E+3 9.6517770E-1
7.1734110E+3 9.9314486E-1
7.1749410E+3 1.0197807E+0
7.1764910E+3 1.0370740E+0
7.1780910E+3 1.0471380E+0
7.1797310E+3 1.0545090E+0
7.1813310E+3 1.0590904E+0
7.1829710E+3 1.0612561E+0
7.1846610E+3 1.0613114E+0
7.1863410E+3 1.0612602E+0
7.1880110E+3 1.0618571E+0
7.1897410E+3 1.0619314E+0
7.1915010E+3 1.0610004E+0
7.1932810E+3 1.0587628E+0
7.1950110E+3 1.0559353E+0
7.1968210E+3 1.0526796E+0
7.1986410E+3 1.0482842E+0
7.2004910E+3 1.0429613E+0
7.2022910E+3 1.0365287E+0
7.2042110E+3 1.0286325E+0
7.2061110E+3 1.0208577E+0
7.2080010E+3 1.0135944E+0
7.2099210E+3 1.0070667E+0
7.2118910E+3 1.0007509E+0
7.2138810E+3 9.9564141E-1
7.2158610E+3 9.9161414E-1
7.2177910E+3 9.8840524E-1
7.2198210E+3 9.8605126E-1
7.2219510E+3 9.8383553E-1
7.2239910E+3 9.8174997E-1
7.2260710E+3 9.7977421E-1
7.2281610E+3 9.7766923E-1
7.2302910E+3 9.7599576E-1
7.2324010E+3 9.7475605E-1
7.2345510E+3 9.7436813E-1
7.2367310E+3 9.7539597E-1
7.2389310E+3 9.7655525E-1
7.2411410E+3 9.7867476E-1
7.2433910E+3 9.8308363E-1
7.2456410E+3 9.8626092E-1
7.2479410E+3 9.9056430E-1
7.2501910E+3 9.9560285E-1
7.2525110E+3 1.0002122E+0
7.2548610E+3 1.0053237E+0
7.2571910E+3 1.0107663E+0
7.2595810E+3 1.0157790E+0
7.2619510E+3 1.0197663E+0
7.2643710E+3 1.0236536E+0
7.2668010E+3 1.0260810E+0
7.2692210E+3 1.0276618E+0
7.2716510E+3 1.0287141E+0
7.2741410E+3 1.0289000E+0
7.2766410E+3 1.0284691E+0
7.2791610E+3 1.0278615E+0
7.2817210E+3 1.0260244E+0
7.2842510E+3 1.0237834E+0
7.2868210E+3 1.0216224E+0
7.2894410E+3 1.0187589E+0
7.2920410E+3 1.0156908E+0
7.2946810E+3 1.0130338E+0
7.2973310E+3 1.0102157E+0
7.3000010E+3 1.0074981E+0
7.3026910E+3 1.0049197E+0
7.3053910E+3 1.0028966E+0
7.3081810E+3 1.0009731E+0
7.3109310E+3 9.9947151E-1
7.3136810E+3 9.9819920E-1
7.3164810E+3 9.9751898E-1
7.3192810E+3 9.9697367E-1
7.3221010E+3 9.9618012E-1
7.3249510E+3 9.9622890E-1
7.3278310E+3 9.9614582E-1
7.3307110E+3 9.9594936E-1
7.3335910E+3 9.9581515E-1
7.3365110E+3 9.9575729E-1
7.3394010E+3 9.9610162E-1
7.3424510E+3 9.9691504E-1
7.3454010E+3 9.9748189E-1
7.3484110E+3 9.9798804E-1
7.3513710E+3 9.9879147E-1
7.3544510E+3 9.9961557E-1
7.3575110E+3 1.0003453E+0
7.3605810E+3 1.0011769E+0
7.3636710E+3 1.0018174E+0
7.3667610E+3 1.0024401E+0
7.3698710E+3 1.0028871E+0
7.3730210E+3 1.0033173E+0
7.3761910E+3 1.0038799E+0
7.3793810E+3 1.0043525E+0
7.3825610E+3 1.0043085E+0
7.3858310E+3 1.0041654E+0
7.3890510E+3 1.0046683E+0
7.3922810E+3 1.0042678E+0
7.3955910E+3 1.0044199E+0
7.3988710E+3 1.0037669E+0
7.4022010E+3 1.0032455E+0
7.4055310E+3 1.0025894E+0
7.4089010E+3 1.0017675E+0
7.4122610E+3 1.0009421E+0
7.4156810E+3 1.0001260E+0
7.4190710E+3 9.9919868E-1
7.4225110E+3 9.9813684E-1
7.4259610E+3 9.9681529E-1
7.4294110E+3 9.9705749E-1
7.4329210E+3 9.9486295E-1
7.4364210E+3 9.9513109E-1
7.4399810E+3 9.9449287E-1
7.4434910E+3 9.9462562E-1
7.4471010E+3 9.9446397E-1
7.4506410E+3 9.9449026E-1
7.4542810E+3 9.9445834E-1
7.4579010E+3 9.9433758E-1
7.4615310E+3 9.9449508E-1
7.4652310E+3 9.9465988E-1
7.4688810E+3 9.9505911E-1
7.4725910E+3 9.9525851E-1
7.4762810E+3 9.9560242E-1
7.4800410E+3 9.9614506E-1
7.4838010E+3 9.9656979E-1
7.4875510E+3 9.9722855E-1
7.4913710E+3 9.9737181E-1
7.4951710E+3 9.9740840E-1
7.4990310E+3 9.9790840E-1
